<?xml version="1.0" encoding="UTF-8"?>

<Bundle xmlns="http://hl7.org/fhir">
  <id value="ex-MHV-BlueButton-0"/>
  <meta>
    <profile value="https://johnmoehrke.github.io/MHV-PGHD/StructureDefinition/VA.MHV.BlueBundle"/>
    <tag>
      <system value="https://wiki.mobilehealth.va.gov/x/Onc1C"/>
      <code value="2ce6d9aa-c068-4809-8dda-662bcb16d09a"/>
    </tag>
  </meta>
  <type value="document"/>
  <timestamp value="2020-11-24T23:50:50-05:00"/>
  <entry>
    <resource>
      <Composition>
        <id value="ex-MHV-Composition-0"/>
        <meta>
          <profile value="https://johnmoehrke.github.io/MHV-PGHD/StructureDefinition/VA.MHV.BlueComposition"/>
          <tag>
            <system value="https://wiki.mobilehealth.va.gov/x/Onc1C"/>
            <code value="2ce6d9aa-c068-4809-8dda-662bcb16d09a"/>
          </tag>
        </meta>
        <text>
          <status value="generated"/><div xmlns="http://www.w3.org/1999/xhtml"><p><b>Generated Narrative</b></p><p><b>status</b>: final</p><p><b>type</b>: <span title="Codes: {http://loinc.org 55188-7}">Patient data Document</span></p><p><b>date</b>: 2020-11-24</p><p><b>author</b>: <a href="Patient-example.html">Generated Summary: ICN: &lt;MVI ICN VALUE WITH CHECKSUM&gt;; Jack Smith , John Jacob Jingleheimer Smith (OFFICIAL), John Jacob Jingleheimer Smith (OFFICIAL)</a></p><p><b>title</b>: All Vital-Signs entered in past 60 days</p></div>
        </text>
        <status value="final"/>
        <type>
          <coding>
            <system value="http://loinc.org"/>
            <code value="55188-7"/>
            <display value="Patient data Document"/>
          </coding>
        </type>
        <subject>
          <reference value="Patient/example"/>
        </subject>
        <date value="2020-11-24"/>
        <author>
          <reference value="Patient/example"/>
        </author>
        <title value="All Vital-Signs entered in past 60 days"/>
        <section>
          <title value="Blood Pressures"/>
          <code>
            <coding>
              <system value="http://loinc.org"/>
              <code value="8716-3"/>
              <display value="Vital Signs"/>
            </coding>
          </code>
          <mode value="snapshot"/>
          <entry>
            <reference value="Observation/ex-MHV-weight"/>
          </entry>
          <entry>
            <reference value="Observation/ex-MHV-bloodSugar-0"/>
          </entry>
        </section>
      </Composition>
    </resource>
  </entry>
  <entry>
    <resource>
      <Encounter>
        <id value="example"/>
        <text>
          <status value="generated"/><div xmlns="http://www.w3.org/1999/xhtml"><p><b>Generated Narrative</b></p><p><b>status</b>: finished</p><p><b>class</b>: <span title="{http://terminology.hl7.org/CodeSystem/v3-ActCode HH}">home health</span></p><p><b>subject</b>: <a href="Patient-example.html">Generated Summary: ICN: &lt;MVI ICN VALUE WITH CHECKSUM&gt;; Jack Smith , John Jacob Jingleheimer Smith (OFFICIAL), John Jacob Jingleheimer Smith (OFFICIAL)</a></p></div>
        </text>
        <status value="finished"/>
        <class>
          <system value="http://terminology.hl7.org/CodeSystem/v3-ActCode"/>
          <code value="HH"/>
        </class>
        <subject>
          <reference value="Patient/example"/>
        </subject>
      </Encounter>
    </resource>
  </entry>
  <entry>
    <resource>
      <Observation>
        <id value="ex-MHV-weight"/>
        <meta>
          <profile value="https://johnmoehrke.github.io/MHV-PGHD/StructureDefinition/VA.MHV.bodyWeight"/>
          <tag>
            <system value="https://wiki.mobilehealth.va.gov/x/Onc1C"/>
            <code value="2ce6d9aa-c068-4809-8dda-662bcb16d09a"/>
          </tag>
        </meta>
        <text>
          <status value="generated"/><div xmlns="http://www.w3.org/1999/xhtml"><p><b>Generated Narrative</b></p><p></p><p><b>category</b>: <span title="Codes: {http://terminology.hl7.org/CodeSystem/observation-category vital-signs}">Vital Signs</span></p><p><b>code</b>: <span title="Codes: {http://loinc.org 29463-7}">Body weight</span></p><p><b>subject</b>: <a href="Patient-example.html">Generated Summary: ICN: &lt;MVI ICN VALUE WITH CHECKSUM&gt;; Jack Smith , John Jacob Jingleheimer Smith (OFFICIAL), John Jacob Jingleheimer Smith (OFFICIAL)</a></p><p><b>effective</b>: Dec 25, 2004 10:50:50 PM</p><p><b>value</b>: 185 [lb_av]</p><p><b>note</b>: a bit heavy</p></div>
        </text>
        <status value="final"/>
        <category>
          <coding>
            <system value="http://terminology.hl7.org/CodeSystem/observation-category"/>
            <code value="vital-signs"/>
          </coding>
        </category>
        <code>
          <coding>
            <system value="http://loinc.org"/>
            <code value="29463-7"/>
          </coding>
        </code>
        <subject>
          <reference value="Patient/example"/>
        </subject>
        <effectiveDateTime value="2004-12-25T23:50:50-05:00"/>
        <valueQuantity>
          <value value="185"/>
          <system value="http://unitsofmeasure.org"/>
          <code value="[lb_av]"/>
        </valueQuantity>
        <note>
          <text value="a bit heavy"/>
        </note>
      </Observation>
    </resource>
  </entry>
  <entry>
    <resource>
      <Observation>
        <id value="ex-MHV-bloodSugar-0"/>
        <meta>
          <profile value="https://johnmoehrke.github.io/MHV-PGHD/StructureDefinition/VA.MHV.bloodSugar"/>
          <tag>
            <system value="https://wiki.mobilehealth.va.gov/x/Onc1C"/>
            <code value="2ce6d9aa-c068-4809-8dda-662bcb16d09a"/>
          </tag>
        </meta>
        <text>
          <status value="generated"/><div xmlns="http://www.w3.org/1999/xhtml"><p><b>Generated Narrative</b></p><p></p><p><b>category</b>: <span title="Codes: {http://terminology.hl7.org/CodeSystem/observation-category vital-signs}">Vital Signs</span></p><p><b>code</b>: <span title="Codes: {http://loinc.org 2339-0}, {http://loinc.org 2345-7}">Glucose [Mass/volume] in Blood</span></p><p><b>subject</b>: <a href="Patient-example.html">Generated Summary: ICN: &lt;MVI ICN VALUE WITH CHECKSUM&gt;; Jack Smith , John Jacob Jingleheimer Smith (OFFICIAL), John Jacob Jingleheimer Smith (OFFICIAL)</a></p><p><b>effective</b>: Dec 25, 2004 10:50:50 PM</p><p><b>value</b>: 99 mg/dL</p><p><b>note</b>: a bit low, no indicated method, no indicated eating</p><h3>Components</h3><table class="grid"><tr><td>-</td><td><b>Code</b></td></tr><tr><td>*</td><td><span title="Codes: {http://snomed.info/sct 162549003}">Eating routine (observable entity)</span></td></tr></table></div>
        </text>
        <status value="final"/>
        <category>
          <coding>
            <system value="http://terminology.hl7.org/CodeSystem/observation-category"/>
            <code value="vital-signs"/>
          </coding>
        </category>
        <code>
          <coding>
            <system value="http://loinc.org"/>
            <code value="2339-0"/>
          </coding>
          <coding>
            <system value="http://loinc.org"/>
            <code value="2345-7"/>
          </coding>
        </code>
        <subject>
          <reference value="Patient/example"/>
        </subject>
        <effectiveDateTime value="2004-12-25T23:50:50-05:00"/>
        <valueQuantity>
          <value value="99"/>
          <system value="http://unitsofmeasure.org"/>
          <code value="mg/dL"/>
        </valueQuantity>
        <note>
          <text value="a bit low, no indicated method, no indicated eating"/>
        </note>
        <component>
          <code>
            <coding>
              <system value="http://snomed.info/sct"/>
              <code value="162549003"/>
              <display value="Eating routine (observable entity)"/>
            </coding>
          </code>
        </component>
      </Observation>
    </resource>
  </entry>
</Bundle>