{
  "resourceType": "Bundle",
  "id": "ex-MHV-BlueButton-0",
  "meta": {
    "profile": [
      "https://johnmoehrke.github.io/MHV-PGHD/StructureDefinition/VA.MHV.BlueBundle"
    ],
    "tag": [
      {
        "system": "https://wiki.mobilehealth.va.gov/x/Onc1C",
        "code": "2ce6d9aa-c068-4809-8dda-662bcb16d09a"
      }
    ]
  },
  "type": "document",
  "timestamp": "2020-11-24T23:50:50-05:00",
  "entry": [
    {
      "resource": {
        "resourceType": "Composition",
        "id": "ex-MHV-Composition-0",
        "meta": {
          "profile": [
            "https://johnmoehrke.github.io/MHV-PGHD/StructureDefinition/VA.MHV.BlueComposition"
          ],
          "tag": [
            {
              "system": "https://wiki.mobilehealth.va.gov/x/Onc1C",
              "code": "2ce6d9aa-c068-4809-8dda-662bcb16d09a"
            }
          ]
        },
        "text": {
          "status": "generated",
          "div": "<div xmlns=\"http://www.w3.org/1999/xhtml\"><p><b>Generated Narrative</b></p><p><b>status</b>: final</p><p><b>type</b>: <span title=\"Codes: {http://loinc.org 55188-7}\">Patient data Document</span></p><p><b>date</b>: 2020-11-24</p><p><b>author</b>: <a href=\"Patient-example.html\">Generated Summary: ICN: &lt;MVI ICN VALUE WITH CHECKSUM&gt;; Jack Smith , John Jacob Jingleheimer Smith (OFFICIAL), John Jacob Jingleheimer Smith (OFFICIAL)</a></p><p><b>title</b>: All Vital-Signs entered in past 60 days</p></div>"
        },
        "status": "final",
        "type": {
          "coding": [
            {
              "system": "http://loinc.org",
              "code": "55188-7",
              "display": "Patient data Document"
            }
          ]
        },
        "subject": {
          "reference": "Patient/example"
        },
        "date": "2020-11-24",
        "author": [
          {
            "reference": "Patient/example"
          }
        ],
        "title": "All Vital-Signs entered in past 60 days",
        "section": [
          {
            "title": "Blood Pressures",
            "code": {
              "coding": [
                {
                  "system": "http://loinc.org",
                  "code": "8716-3",
                  "display": "Vital Signs"
                }
              ]
            },
            "mode": "snapshot",
            "entry": [
              {
                "reference": "Observation/ex-MHV-weight"
              },
              {
                "reference": "Observation/ex-MHV-bloodSugar-0"
              }
            ]
          }
        ]
      }
    },
    {
      "resource": {
        "resourceType": "Encounter",
        "id": "example",
        "text": {
          "status": "generated",
          "div": "<div xmlns=\"http://www.w3.org/1999/xhtml\"><p><b>Generated Narrative</b></p><p><b>status</b>: finished</p><p><b>class</b>: <span title=\"{http://terminology.hl7.org/CodeSystem/v3-ActCode HH}\">home health</span></p><p><b>subject</b>: <a href=\"Patient-example.html\">Generated Summary: ICN: &lt;MVI ICN VALUE WITH CHECKSUM&gt;; Jack Smith , John Jacob Jingleheimer Smith (OFFICIAL), John Jacob Jingleheimer Smith (OFFICIAL)</a></p></div>"
        },
        "status": "finished",
        "class": {
          "system": "http://terminology.hl7.org/CodeSystem/v3-ActCode",
          "code": "HH"
        },
        "subject": {
          "reference": "Patient/example"
        }
      }
    },
    {
      "resource": {
        "resourceType": "Observation",
        "id": "ex-MHV-weight",
        "meta": {
          "profile": [
            "https://johnmoehrke.github.io/MHV-PGHD/StructureDefinition/VA.MHV.bodyWeight"
          ],
          "tag": [
            {
              "system": "https://wiki.mobilehealth.va.gov/x/Onc1C",
              "code": "2ce6d9aa-c068-4809-8dda-662bcb16d09a"
            }
          ]
        },
        "text": {
          "status": "generated",
          "div": "<div xmlns=\"http://www.w3.org/1999/xhtml\"><p><b>Generated Narrative</b></p><p></p><p><b>category</b>: <span title=\"Codes: {http://terminology.hl7.org/CodeSystem/observation-category vital-signs}\">Vital Signs</span></p><p><b>code</b>: <span title=\"Codes: {http://loinc.org 29463-7}\">Body weight</span></p><p><b>subject</b>: <a href=\"Patient-example.html\">Generated Summary: ICN: &lt;MVI ICN VALUE WITH CHECKSUM&gt;; Jack Smith , John Jacob Jingleheimer Smith (OFFICIAL), John Jacob Jingleheimer Smith (OFFICIAL)</a></p><p><b>effective</b>: Dec 25, 2004 10:50:50 PM</p><p><b>value</b>: 185 [lb_av]</p><p><b>note</b>: a bit heavy</p></div>"
        },
        "status": "final",
        "category": [
          {
            "coding": [
              {
                "system": "http://terminology.hl7.org/CodeSystem/observation-category",
                "code": "vital-signs"
              }
            ]
          }
        ],
        "code": {
          "coding": [
            {
              "system": "http://loinc.org",
              "code": "29463-7"
            }
          ]
        },
        "subject": {
          "reference": "Patient/example"
        },
        "effectiveDateTime": "2004-12-25T23:50:50-05:00",
        "valueQuantity": {
          "value": 185,
          "system": "http://unitsofmeasure.org",
          "code": "[lb_av]"
        },
        "note": [
          {
            "text": "a bit heavy"
          }
        ]
      }
    },
    {
      "resource": {
        "resourceType": "Observation",
        "id": "ex-MHV-bloodSugar-0",
        "meta": {
          "profile": [
            "https://johnmoehrke.github.io/MHV-PGHD/StructureDefinition/VA.MHV.bloodSugar"
          ],
          "tag": [
            {
              "system": "https://wiki.mobilehealth.va.gov/x/Onc1C",
              "code": "2ce6d9aa-c068-4809-8dda-662bcb16d09a"
            }
          ]
        },
        "text": {
          "status": "generated",
          "div": "<div xmlns=\"http://www.w3.org/1999/xhtml\"><p><b>Generated Narrative</b></p><p></p><p><b>category</b>: <span title=\"Codes: {http://terminology.hl7.org/CodeSystem/observation-category vital-signs}\">Vital Signs</span></p><p><b>code</b>: <span title=\"Codes: {http://loinc.org 2339-0}, {http://loinc.org 2345-7}\">Glucose [Mass/volume] in Blood</span></p><p><b>subject</b>: <a href=\"Patient-example.html\">Generated Summary: ICN: &lt;MVI ICN VALUE WITH CHECKSUM&gt;; Jack Smith , John Jacob Jingleheimer Smith (OFFICIAL), John Jacob Jingleheimer Smith (OFFICIAL)</a></p><p><b>effective</b>: Dec 25, 2004 10:50:50 PM</p><p><b>value</b>: 99 mg/dL</p><p><b>note</b>: a bit low, no indicated method, no indicated eating</p><h3>Components</h3><table class=\"grid\"><tr><td>-</td><td><b>Code</b></td></tr><tr><td>*</td><td><span title=\"Codes: {http://snomed.info/sct 162549003}\">Eating routine (observable entity)</span></td></tr></table></div>"
        },
        "status": "final",
        "category": [
          {
            "coding": [
              {
                "system": "http://terminology.hl7.org/CodeSystem/observation-category",
                "code": "vital-signs"
              }
            ]
          }
        ],
        "code": {
          "coding": [
            {
              "system": "http://loinc.org",
              "code": "2339-0"
            },
            {
              "system": "http://loinc.org",
              "code": "2345-7"
            }
          ]
        },
        "subject": {
          "reference": "Patient/example"
        },
        "effectiveDateTime": "2004-12-25T23:50:50-05:00",
        "valueQuantity": {
          "value": 99,
          "system": "http://unitsofmeasure.org",
          "code": "mg/dL"
        },
        "note": [
          {
            "text": "a bit low, no indicated method, no indicated eating"
          }
        ],
        "component": [
          {
            "code": {
              "coding": [
                {
                  "system": "http://snomed.info/sct",
                  "code": "162549003",
                  "display": "Eating routine (observable entity)"
                }
              ]
            }
          }
        ]
      }
    }
  ]
}